Folder: Microenvironment-Paper-Code/Paper Absorbance and Fluorescence Code/D4/D4ACN5uM

Note: README.md
# Microenvironment Paper Code
 MATLAB Code used in Microenvironment Paper
These are the different scripts written in MATLAB for processing and analysing the data in the following experiments:
In-situ UV-Vis experiments (both photoisomerisation of the monomers and photocycloaddition of the tethered molecules)

File: D4ACN5uMEmissionMatlab.csv
D4ACN5uMEx470nmA,,D4ACN5uMEx460nmA,,D4ACN5uMEx450nmA,,D4ACN5uMEx440nmA,,D4ACN5uMEx430nmA,,D4ACN5uMEx420nmA,,D4ACN5uMEx410nmA,,D4ACN5uMEx400nmA,,D4ACN5uMEx470nmB,,D4ACN5uMEx460nmB,,D4ACN5uMEx450nmB,,D4ACN5uMEx440nmB,,D4ACN5uMEx430nmB,,D4ACN5uMEx420nmB,,D4ACN5uMEx410nmB,,D4ACN5uMEx400nmB,,D4ACN5uMEx470nmC,,D4ACN5uMEx460nmC,,D4ACN5uMEx450nmC,,D4ACN5uMEx440nmC,,D4ACN5uMEx430nmC,,D4ACN5uMEx420nmC,,D4ACN5uMEx410nmC,,D4ACN5uMEx400nmC,
Wavelength (nm),Intensity (a.u.),Wavelength (nm),Intensity (a.u.),Wavelength (nm),Intensity (a.u.),Wavelength (nm),Intensity (a.u.),Wavelength (nm),Intensity (a.u.),Wavelength (nm),Intensity (a.u.),Wavelength (nm),Intensity (a.u.),Wavelength (nm),Intensity (a.u.),Wavelength (nm),Intensity (a.u.),Wavelength (nm),Intensity (a.u.),Wavelength (nm),Intensity (a.u.),Wavelength (nm),Intensity (a.u.),Wavelength (nm),Intensity (a.u.),Wavelength (nm),Intensity (a.u.),Wavelength (nm),Intensity (a.u.),Wavelength (nm),Intensity (a.u.),Wavelength (nm),Intensity (a.u.),Wavelength (nm),Intensity (a.u.),Wavelength (nm),Intensity (a.u.),Wavelength (nm),Intensity (a.u.),Wavelength (nm),Intensity (a.u.),Wavelength (nm),Intensity (a.u.),Wavelength (nm),Intensity (a.u.),Wavelength (nm),Intensity (a.u.)
480,10.6132,470,23.9138,460,35.4447,450,26.2662,440,10.8104,430,2.87888,420,1.48024,410,1.03027,480,10.6595,470,23.9584,460,35.1266,450,26.6442,440,10.9632,430,2.92113,420,1.40039,410,1.01107,480,10.5847,470,23.9869,460,35.0057,450,26.3352,440,10.8224,430,2.91782,420,1.39161,410,0.982043
488.93,12.9972,478.93,35.1998,468.93,67.2595,458.93,66.7459,448.93,35.5527,439.07,10.1027,428.93,2.61853,419.07,1.3027,488.93,13.0123,478.93,35.4666,468.93,67.4403,458.93,66.7561,448.93,35.4842,439.07,10.1336,428.93,2.51438,419.07,1.18481,488.93,12.9926,478.93,34.9485,468.93,67.3169,458.93,66.6485,448.93,35.2919,439.07,10.2992,428.93,2.61177,419.07,1.20875
498.03,14.3054,488.03,44.9453,478.03,102.574,468.03,132.285,458.03,95.3035,448.03,34.3948,438,8.69483,428.03,2.31145,498.03,14.3604,488.03,44.8832,478.03,101.959,468.03,133.25,458.03,95.7252,448.03,34.9148,438,8.75574,428.03,2.19454,498.03,14.1647,488.03,44.8409,478.03,101.562,468.03,131.986,458.03,95.3092,448.03,34.1939,438,8.78158,428.03,2.39687
507.01,14.2369,496.96,50.1214,486.96,131.525,476.96,202.878,466.96,191.831,456.96,95.0082,446.96,29.876,437.07,7.14225,507.01,14.6981,496.96,50.348,486.96,131.375,476.96,204.996,466.96,193.09,456.96,95.1069,446.96,29.9362,437.07,7.15909,507.01,14.3259,496.96,49.937,486.96,131.277,476.96,203.12,466.96,191.789,456.96,93.5649,446.96,29.878,437.07,7.15092
515.97,14.0211,505.97,50.9783,496.06,148.305,486.06,267.713,476.06,305.396,466.06,196.386,456.06,85.8288,446.06,25.9837,515.97,13.5382,505.97,51.1582,496.06,147.793,486.06,268.695,476.06,306.141,466.06,197.836,456.06,85.883,446.06,25.9985,515.97,13.6903,505.97,51.2189,496.06,148.526,486.06,267.626,476.06,303.688,466.06,195.819,456.06,85.4079,446.06,26.2653
525,12.6265,515.07,48.3747,505.07,151.709,495,303.263,485,405.096,475,318.471,465,183.343,455,74.384,525,12.8394,515.07,48.6513,505.07,152.423,495,304.576,485,406.25,475,320.272,465,183.752,455,74.356,525,12.858,515.07,48.6242,505.07,152.151,495,303.623,485,403.628,475,317.183,465,182.865,455,75.054
534.02,11.4332,523.93,44.3719,514.02,144.989,504.02,312.4,493.93,465.272,483.93,429.773,473.93,302.247,463.93,163.705,534.02,11.576,523.93,44.7539,514.02,145.615,504.02,314.528,493.93,468.419,483.93,431.386,473.93,305.62,463.93,163.785,534.02,11.4168,523.93,44.0973,514.02,144.794,504.02,312.897,493.93,464.633,483.93,427.569,473.93,303.654,463.93,164.413
542.98,10.2001,532.98,39.9126,523.03,130.55,512.98,298.426,502.98,485.177,493.03,502.329,483.03,416.528,473.03,280.444,542.98,10.3493,532.98,39.6936,523.03,132.595,512.98,300.866,502.98,486.243,493.03,504.474,483.03,418.038,473.03,280.145,542.98,10.0629,532.98,39.6741,523.03,132.131,512.98,299.341,502.98,481.754,493.03,499.649,483.03,415.415,473.03,277.77
552.05,8.66313,541.94,33.9451,531.94,115.08,521.96,269.046,511.94,466.495,501.94,525.846,491.96,494.201,481.96,388.05,552.05,8.77171,541.94,33.9337,531.94,115.99,521.96,271.399,511.94,466.486,501.94,526.935,491.96,497.126,481.96,388.97,552.05,8.77505,541.94,34.0922,531.94,116.126,521.96,272.155,511.94,465.763,501.94,523.365,491.96,492.089,481.96,387.223
561.04,7.54149,551.02,28.7192,541.04,97.9417,531.04,236.718,521.06,421.951,511.04,509.558,501.04,521.941,491.06,470.257,561.04,7.5733,551.02,28.9662,541.04,99.4963,531.04,239.741,521.06,424.367,511.04,509.475,501.04,525.527,491.06,471.813,561.04,7.37237,551.02,29.0298,541.04,98.2915,531.04,239.039,521.06,422.024,511.04,507.42,501.04,522.592,491.06,467.837
570,6.31606,560,24.4189,550,82.7562,540,201.727,530,369.552,520,463.109,510,509.584,500,501.971,570,6.32414,560,24.6364,550,83.5562,540,203.192,530,373.041,520,464.793,510,512.925,500,502.536,570,6.29979,560,24.4249,550,82.7215,540,202.658,530,370.828,520,462.979,510,510.849,500,500
578.97,5.58996,568.95,20.8088,558.97,68.738,548.95,167.752,538.95,313.37,528.93,408.307,518.95,468.425,508.95,496.126,578.97,5.76782,568.95,20.9294,558.97,69.3483,548.95,169.652,538.95,315.697,528.93,410.354,518.95,470.385,508.95,496.522,578.97,5.65902,568.95,20.8924,558.97,69.3388,548.95,168.764,538.95,314.495,528.93,407.531,518.95,469.329,508.95,493.629
587.94,4.91198,577.94,17.7207,568.05,57.2959,557.94,137.798,548.05,260.429,538.05,346.066,528.03,411.187,518.05,456.519,587.94,4.85428,577.94,17.8131,568.05,57.6769,557.94,139.274,548.05,261.622,538.05,347.424,528.03,414.698,518.05,456.172,587.94,4.95354,577.94,17.6761,568.05,57.8019,557.94,139.041,548.05,260.37,538.05,345.931,528.03,413.779,518.05,455.053
597.05,4.38637,587.05,15.1449,577.05,47.018,567.01,113.282,557.05,212.115,547.01,286.444,537.01,351.843,526.96,405.409,597.05,4.26749,587.05,15.1121,577.05,47.8497,567.01,114.421,557.05,213.225,547.01,286.582,537.01,352.941,526.96,405.843,597.05,4.40348,587.05,15.1739,577.05,47.5685,567.01,113.676,557.05,212.7444,547.01,285.906,537.01,351.86,526.96,403.358
606.02,3.87732,596.02,13.0502,586.02,39.8409,576.02,92.3495,565.97,173.562,556.02,233.751,545.97,290.252,535.97,347.214,606.02,3.81294,596.02,12.9967,586.02,40.1283,576.02,92.7066,565.97,173.329,556.02,235.629,545.97,291.52,535.97,348.796,606.02,3.85884,596.02,13.0226,586.02,40.0011,576.02,92.9488,565.97,172.702,556.02,234.081,545.97,292.556,535.97,345.364
615,3.19403,605,11.1747,595,33.2932,585,75.8494,575,138.993,565.07,189.462,555,240.604,545.07,287.833,615,3.26663,605,11.2502,595,33.778,585,76.6089,575,140.562,565.07,188.863,555,240.583,545.07,288.702,615,3.25659,605,11.0505,595,33.6484,585,76.5859,575,139.777,565.07,188.452,555,238.736,545.07,287.739
624.05,2.77338,613.97,9.63818,603.97,28.4229,593.97,62.7572,583.97,113.331,573.97,152.553,564.02,193.986,553.97,236.962,624.05,3.02715,613.97,9.64965,603.97,28.9068,593.97,63.3639,583.97,113.801,573.97,153.872,564.02,193.65,553.97,237.746,624.05,2.99656,613.97,9.47059,603.97,28.3036,593.97,63.3245,583.97,113.913,573.97,153.058,564.02,194.366,553.97,236.893
632.94,2.48604,623.04,8.20777,612.94,23.9769,602.94,51.8147,592.94,92.7617,582.94,123.391,572.94,156.798,562.98,192.215,632.94,2.40245,623.04,8.06803,612.94,23.99,602.94,52.6683,592.94,93.829,582.94,124.02,572.94,157.142,562.98,192.739,632.94,2.52653,623.04,8.16678,612.94,23.9802,602.94,52.6165,592.94,93.2036,582.94,123.291,572.94,157.408,562.98,191.897
642.02,2.1806,632.05,6.99736,622.02,19.9905,612.05,43.4701,602.05,76.1205,592.05,100.419,582.05,125.994,572.05,155.167,642.02,2.06543,632.05,6.80891,622.02,20.303,612.05,43.883,602.05,76.5072,592.05,101.163,582.05,127.115,572.05,156.086,642.02,2.12477,632.05,7.01141,622.02,20.0627,612.05,43.495,602.05,75.6802,592.05,100.427,582.05,127.431,572.05,154.131
651.01,1.73571,641.01,5.98593,631.02,16.6779,621.01,36.1969,611.02,62.7147,601.02,81.9627,591.02,102.6,581.02,125.936,651.01,1.73633,641.01,5.90671,631.02,16.8059,621.01,36.4804,611.02,62.8766,601.02,82.1525,591.02,103.614,581.02,126.746,651.01,1.96596,641.01,5.84949,631.02,16.7599,621.01,36.3584,611.02,62.4896,601.02,82.018,591.02,103.213,581.02,126.646
660,1.5383,650,4.86475,640,13.9606,630,30.0459,620,51.6809,610,66.8597,600,83.4193,590,102.511,660,1.54464,650,5.05363,640,14.3495,630,30.136,620,51.5365,610,67.0859,600,84.5866,590,102.23,660,1.61565,650,4.86825,640,14.0978,630,30.159,620,51.001,610,67.3546,600,84.7293,590,102.521
669,1.21023,658.98,4.01775,648.98,11.5955,638.97,24.7603,628.98,42.3981,618.97,54.9041,608.97,69.0368,598.97,83.1102,669,1.25336,658.98,4.11731,648.98,12.0085,638.97,24.9415,628.98,42.7506,618.97,55.1973,608.97,69.8413,598.97,84.389,669,1.46071,658.98,4.14795,648.98,11.6198,638.97,24.852,628.98,42.3919,618.97,55.1056,608.97,69.0275,598.97,83.7653
677.97,1.2343,668,3.45257,657.97,9.90777,647.97,20.6966,637.94,34.5695,627.97,45.3723,617.94,56.5038,607.94,69.4478,677.97,1.05352,668,3.53136,657.97,10.073,647.97,20.6917,637.94,35.0353,627.97,45.2885,617.94,57.4754,607.94,69.4509,677.97,1.03176,668,3.55683,657.97,9.68377,647.97,20.8722,637.94,34.6797,627.97,45.2269,617.94,56.9524,607.94,68.9212
687,1.04628,676.95,2.98257,667,8.06758,656.95,16.92,646.95,28.6105,637.05,36.8972,626.95,46.4562,617.05,56.5844,687,0.932588,676.95,2.79249,667,8.1466,656.95,17.1936,646.95,29.1186,637.05,37.285,626.95,46.7456,617.05,56.99,687,0.946626,676.95,2.9222,667,8.2527,656.95,17.0864,646.95,28.7691,637.05,37.1806,626.95,46.4909,617.05,56.4156
696,0.895217,686,2.57782,675.94,6.62273,666,14.0689,655.94,23.548,645.94,30.3641,636.02,38.4194,625.94,46.1667,696,0.797305,686,2.56601,675.94,6.58678,666,14.2138,655.94,23.6699,645.94,30.6185,636.02,38.1767,625.94,46.2283,696,0.624319,686,2.47816,675.94,6.7402,666,14.0643,655.94,23.5077,645.94,30.2566,636.02,38.2051,625.94,46.3607
,,695,2.20752,685,5.81697,675.07,11.4218,665,19.1837,655.07,24.8508,645.07,31.4031,635,38.08,,,695,2.24658,685,5.84779,675.07,11.5771,665,19.4769,655.07,25.027,645.07,31.5399,635,38.7862,,,695,2.15933,685,5.74965,675.07,11.3594,665,19.223,655.07,24.8327,645.07,31.4016,635,37.8296
,,,,694,4.90939,684,9.56628,674.05,15.9148,664,20.3208,654.05,25.5951,644.05,31.0311,,,,,694,5.01877,684,9.67997,674.05,15.8851,664,20.6804,654.05,25.7276,644.05,31.7651,,,,,694,4.92516,684,9.75354,674.05,16.1389,664,20.5247,654.05,25.6317,644.05,31.2522
,,,,,,693,8.20073,683,13.1457,673.04,16.6921,663,21.451,653.04,25.6029,,,,,,,693,8.42302,683,13.1797,673.04,16.8896,663,21.1806,653.04,26.0141,,,,,,,693,8.4636,683,13.0733,673.04,16.6236,663,21.1093,653.04,25.5975
,,,,,,,,692,11.3093,682,13.7334,672.02,17.5501,662,21.3382,,,,,,,,,692,11.2234,682,13.7121,672.02,17.42,662,21.1211,,,,,,,,,692,11.0789,682,13.8374,672.02,17.1221,662,21.3886
,,,,,,,,,,691,11.9699,681,14.2936,671.01,17.4393,,,,,,,,,,,691,11.9085,681,14.5106,671.01,17.4733,,,,,,,,,,,691,11.9481,681,14.3702,671.01,17.6301
,,,,,,,,,,700,9.96937,690,12.16,680,14.5478,,,,,,,,,,,700,9.91547,690,12.2889,680,14.6017,,,,,,,,,,,700,10.004,690,12.0614,680,14.4187
,,,,,,,,,,,,699,10.3949,689,12.5097,,,,,,,,,,,,,699,10.4996,689,12.4485,,,,,,,,,,,,,699,10.1646,689,12.1532
,,,,,,,,,,,,,,698,10.2998,,,,,,,,,,,,,,,698,10.455,,,,,,,,,,,,,,,698,10.2094
,,,,,,,,,,,,,,700,9.88103,,,,,,,,,,,,,,,700,10.1283,,,,,,,,,,,,,,,700,10.0806
,,,,,,,,,,,,,,,,,,,,,,,,,,,,,,,,,,,,,,,,,,,,,,,
,,,,,,,,,,,,,,,,,,,,,,,,,,,,,,,,,,,,,,,,,,,,,,,
,,,,,,,,,,,,,,,,,,,,,,,,,,,,,,,,,,,,,,,,,,,,,,,
,,,,,,,,,,,,,,,,,,,,,,,,,,,,,,,,,,,,,,,,,,,,,,,
,,,,,,,,,,,,,,,,,,,,,,,,,,,,,,,,,,,,,,,,,,,,,,,
,,,,,,,,,,,,,,,,,,,,,,,,,,,,,,,,,,,,,,,,,,,,,,,
,,,,,,,,,,,,,,,,,,,,,,,,,,,,,,,,,,,,,,,,,,,,,,,
,,,,,,,,,,,,,,,,,,,,,,,,,,,,,,,,,,,,,,,,,,,,,,,
,,,,,,,,,,,,,,,,,,,,,,,,,,,,,,,,,,,,,,,,,,,,,,,
,,,,,,,,,,,,,,,,,,,,,,,,,,,,,,,,,,,,,,,,,,,,,,,
,,,,,,,,,,,,,,,,,,,,,,,,,,,,,,,,,,,,,,,,,,,,,,,
,,,,,,,,,,,,,,,,,,,,,,,,,,,,,,,,,,,,,,,,,,,,,,,
,,,,,,,,,,,,,,,,,,,,,,,,,,,,,,,,,,,,,,,,,,,,,,,
,,,,,,,,,,,,,,,,,,,,,,,,,,,,,,,,,,,,,,,,,,,,,,,
,,,,,,,,,,,,,,,,,,,,,,,,,,,,,,,,,,,,,,,,,,,,,,,
,,,,,,,,,,,,,,,,,,,,,,,,,,,,,,,,,,,,,,,,,,,,,,,
,,,,,,,,,,,,,,,,,,,,,,,,,,,,,,,,,,,,,,,,,,,,,,,
,,,,,,,,,,,,,,,,,,,,,,,,,,,,,,,,,,,,,,,,,,,,,,,
,,,,,,,,,,,,,,,,,,,,,,,,,,,,,,,,,,,,,,,,,,,,,,,
,,,,,,,,,,,,,,,,,,,,,,,,,,,,,,,,,,,,,,,,,,,,,,,
,,,,,,,,,,,,,,,,,,,,,,,,,,,,,,,,,,,,,,,,,,,,,,,
,,,,,,,,,,,,,,,,,,,,,,,,,,,,,,,,,,,,,,,,,,,,,,,
,,,,,,,,,,,,,,,,,,,,,,,,,,,,,,,,,,,,,,,,,,,,,,,
,,,,,,,,,,,,,,,,,,,,,,,,,,,,,,,,,,,,,,,,,,,,,,,
,,,,,,,,,,,,,,,,,,,,,,,,,,,,,,,,,,,,,,,,,,,,,,,
,,,,,,,,,,,,,,,,,,,,,,,,,,,,,,,,,,,,,,,,,,,,,,,
,,,,,,,,,,,,,,,,,,,,,,,,,,,,,,,,,,,,,,,,,,,,,,,
,,,,,,,,,,,,,,,,,,,,,,,,,,,,,,,,,,,,,,,,,,,,,,,
 New:ON,,,,,,,,,,,,,,,,,,,,,,,,,,,,,,,,,,,,,,,,,,,,,,,
 New: 500.00,,,,,,,,,,,,,,,,,,,,,,,,,,,,,,,,,,,,,,,,,,,,,,,
 New:   0.15,,,,,,,,,,,,,,,,,,,,,,,,,,,,,,,,,,,,,,,,,,,,,,,
 New:Slow,,,,,,,,,,,,,,,,,,,,,,,,,,,,,,,,,,,,,,,,,,,,,,,
 New:0.50000,,,,,,,,,,,,,,,,,,,,,,,,,,,,,,,,,,,,,,,,,,,,,,,
 New: 500.00,,,,,,,,,,,,,,,,,,,,,,,,,,,,,,,,,,,,,,,,,,,,,,,
 New: 510.00,,,,,,,,,,,,,,,,,,,,,,,,,,,,,,,,,,,,,,,,,,,,,,,
 New: 700.00,,,,,,,,,,,,,,,,,,,,,,,,,,,,,,,,,,,,,,,,,,,,,,,
 New: 490.00,,,,,,,,,,,,,,,,,,,,,,,,,,,,,,,,,,,,,,,,,,,,,,,
 New: 500.00,,,,,,,,,,,,,,,,,,,,,,,,,,,,,,,,,,,,,,,,,,,,,,,
 New: 480.00,,,,,,,,,,,,,,,,,,,,,,,,,,,,,,,,,,,,,,,,,,,,,,,
 New: 490.00,,,,,,,,,,,,,,,,,,,,,,,,,,,,,,,,,,,,,,,,,,,,,,,
,,,,,,,,,,,,,,,,,,,,,,,,,,,,,,,,,,,,,,,,,,,,,,,
,,,,,,,,,,,,,,,,,,,,,,,,,,,,,,,,,,,,,,,,,,,,,,,
,,,,,,,,,,,,,,,,,,,,,,,,,,,,,,,,,,,,,,,,,,,,,,,
,,,,,,,,,,,,,,,,,,,,,,,,,,,,,,,,,,,,,,,,,,,,,,,
,,,,,,,,,,,,,,,,,,,,,,,,,,,,,,,,,,,,,,,,,,,,,,,
,,,,,,,,,,,,,,,,,,,,,,,,,,,,,,,,,,,,,,,,,,,,,,,
,,,,,,,,,,,,,,,,,,,,,,,,,,,,,,,,,,,,,,,,,,,,,,,
,,,,,,,,,,,,,,,,,,,,,,,,,,,,,,,,,,,,,,,,,,,,,,,
,,,,,,,,,,,,,,,,,,,,,,,,,,,,,,,,,,,,,,,,,,,,,,,
,,,,,,,,,,,,,,,,,,,,,,,,,,,,,,,,,,,,,,,,,,,,,,,
,,,,,,,,,,,,,,,,,,,,,,,,,,,,,,,,,,,,,,,,,,,,,,,
,,,,,,,,,,,,,,,,,,,,,,,,,,,,,,,,,,,,,,,,,,,,,,,
,,,,,,,,,,,,,,,,,,,,,,,,,,,,,,,,,,,,,,,,,,,,,,,
,,,,,,,,,,,,,,,,,,,,,,,,,,,,,,,,,,,,,,,,,,,,,,,
,,,,,,,,,,,,,,,,,,,,,,,,,,,,,,,,,,,,,,,,,,,,,,,
,,,,,,,,,,,,,,,,,,,,,,,,,,,,,,,,,,,,,,,,,,,,,,,
,,,,,,,,,,,,,,,,,,,,,,,,,,,,,,,,,,,,,,,,,,,,,,,
,,,,,,,,,,,,,,,,,,,,,,,,,,,,,,,,,,,,,,,,,,,,,,,
,,,,,,,,,,,,,,,,,,,,,,,,,,,,,,,,,,,,,,,,,,,,,,,
,,,,,,,,,,,,,,,,,,,,,,,,,,,,,,,,,,,,,,,,,,,,,,,
,,,,,,,,,,,,,,,,,,,,,,,,,,,,,,,,,,,,,,,,,,,,,,,
,,,,,,,,,,,,,,,,,,,,,,,,,,,,,,,,,,,,,,,,,,,,,,,
,,,,,,,,,,,,,,,,,,,,,,,,,,,,,,,,,,,,,,,,,,,,,,,
,,,,,,,,,,,,,,,,,,,,,,,,,,,,,,,,,,,,,,,,,,,,,,,
,,,,,,,,,,,,,,,,,,,,,,,,,,,,,,,,,,,,,,,,,,,,,,,
,,,,,,,,,,,,,,,,,,,,,,,,,,,,,,,,,,,,,,,,,,,,,,,
,,,,,,,,,,,,,,,,,,,,,,,,,,,,,,,,,,,,,,,,,,,,,,,
,,,,,,,,,,,,,,,,,,,,,,,,,,,,,,,,,,,,,,,,,,,,,,,
,,,,,,,,,,,,,,,,,,,,,,,,,,,,,,,,,,,,,,,,,,,,,,,
,,,,,,,,,,,,,,,,,,,,,,,,,,,,,,,,,,,,,,,,,,,,,,,
 New:ON,,,,,,,,,,,,,,,,,,,,,,,,,,,,,,,,,,,,,,,,,,,,,,,
 New: 500.00,,,,,,,,,,,,,,,,,,,,,,,,,,,,,,,,,,,,,,,,,,,,,,,
 New:   0.15,,,,,,,,,,,,,,,,,,,,,,,,,,,,,,,,,,,,,,,,,,,,,,,
 New:Slow,,,,,,,,,,,,,,,,,,,,,,,,,,,,,,,,,,,,,,,,,,,,,,,
 New:0.50000,,,,,,,,,,,,,,,,,,,,,,,,,,,,,,,,,,,,,,,,,,,,,,,
 New: 500.00,,,,,,,,,,,,,,,,,,,,,,,,,,,,,,,,,,,,,,,,,,,,,,,
 New: 510.00,,,,,,,,,,,,,,,,,,,,,,,,,,,,,,,,,,,,,,,,,,,,,,,
 New: 700.00,,,,,,,,,,,,,,,,,,,,,,,,,,,,,,,,,,,,,,,,,,,,,,,
 New: 490.00,,,,,,,,,,,,,,,,,,,,,,,,,,,,,,,,,,,,,,,,,,,,,,,
 New: 500.00,,,,,,,,,,,,,,,,,,,,,,,,,,,,,,,,,,,,,,,,,,,,,,,
 New: 480.00,,,,,,,,,,,,,,,,,,,,,,,,,,,,,,,,,,,,,,,,,,,,,,,
 New: 490.00,,,,,,,,,,,,,,,,,,,,,,,,,,,,,,,,,,,,,,,,,,,,,,,
 New: 470.00,,,,,,,,,,,,,,,,,,,,,,,,,,,,,,,,,,,,,,,,,,,,,,,
 New: 480.00,,,,,,,,,,,,,,,,,,,,,,,,,,,,,,,,,,,,,,,,,,,,,,,
,,,,,,,,,,,,,,,,,,,,,,,,,,,,,,,,,,,,,,,,,,,,,,,
,,,,,,,,,,,,,,,,,,,,,,,,,,,,,,,,,,,,,,,,,,,,,,,
,,,,,,,,,,,,,,,,,,,,,,,,,,,,,,,,,,,,,,,,,,,,,,,
,,,,,,,,,,,,,,,,,,,,,,,,,,,,,,,,,,,,,,,,,,,,,,,
,,,,,,,,,,,,,,,,,,,,,,,,,,,,,,,,,,,,,,,,,,,,,,,
,,,,,,,,,,,,,,,,,,,,,,,,,,,,,,,,,,,,,,,,,,,,,,,
,,,,,,,,,,,,,,,,,,,,,,,,,,,,,,,,,,,,,,,,,,,,,,,
,,,,,,,,,,,,,,,,,,,,,,,,,,,,,,,,,,,,,,,,,,,,,,,
,,,,,,,,,,,,,,,,,,,,,,,,,,,,,,,,,,,,,,,,,,,,,,,
,,,,,,,,,,,,,,,,,,,,,,,,,,,,,,,,,,,,,,,,,,,,,,,
,,,,,,,,,,,,,,,,,,,,,,,,,,,,,,,,,,,,,,,,,,,,,,,
,,,,,,,,,,,,,,,,,,,,,,,,,,,,,,,,,,,,,,,,,,,,,,,
,,,,,,,,,,,,,,,,,,,,,,,,,,,,,,,,,,,,,,,,,,,,,,,
,,,,,,,,,,,,,,,,,,,,,,,,,,,,,,,,,,,,,,,,,,,,,,,
,,,,,,,,,,,,,,,,,,,,,,,,,,,,,,,,,,,,,,,,,,,,,,,
,,,,,,,,,,,,,,,,,,,,,,,,,,,,,,,,,,,,,,,,,,,,,,,
,,,,,,,,,,,,,,,,,,,,,,,,,,,,,,,,,,,,,,,,,,,,,,,
,,,,,,,,,,,,,,,,,,,,,,,,,,,,,,,,,,,,,,,,,,,,,,,
,,,,,,,,,,,,,,,,,,,,,,,,,,,,,,,,,,,,,,,,,,,,,,,
,,,,,,,,,,,,,,,,,,,,,,,,,,,,,,,,,,,,,,,,,,,,,,,
,,,,,,,,,,,,,,,,,,,,,,,,,,,,,,,,,,,,,,,,,,,,,,,
,,,,,,,,,,,,,,,,,,,,,,,,,,,,,,,,,,,,,,,,,,,,,,,
,,,,,,,,,,,,,,,,,,,,,,,,,,,,,,,,,,,,,,,,,,,,,,,
,,,,,,,,,,,,,,,,,,,,,,,,,,,,,,,,,,,,,,,,,,,,,,,
,,,,,,,,,,,,,,,,,,,,,,,,,,,,,,,,,,,,,,,,,,,,,,,
,,,,,,,,,,,,,,,,,,,,,,,,,,,,,,,,,,,,,,,,,,,,,,,
,,,,,,,,,,,,,,,,,,,,,,,,,,,,,,,,,,,,,,,,,,,,,,,
,,,,,,,,,,,,,,,,,,,,,,,,,,,,,,,,,,,,,,,,,,,,,,,
,,,,,,,,,,,,,,,,,,,,,,,,,,,,,,,,,,,,,,,,,,,,,,,
,,,,,,,,,,,,,,,,,,,,,,,,,,,,,,,,,,,,,,,,,,,,,,,
 New:ON,,,,,,,,,,,,,,,,,,,,,,,,,,,,,,,,,,,,,,,,,,,,,,,
 New: 500.00,,,,,,,,,,,,,,,,,,,,,,,,,,,,,,,,,,,,,,,,,,,,,,,
 New:   0.15,,,,,,,,,,,,,,,,,,,,,,,,,,,,,,,,,,,,,,,,,,,,,,,
 New:Slow,,,,,,,,,,,,,,,,,,,,,,,,,,,,,,,,,,,,,,,,,,,,,,,
 New:0.50000,,,,,,,,,,,,,,,,,,,,,,,,,,,,,,,,,,,,,,,,,,,,,,,
[...]
 New: 500.00,,,,,,,,,,,,,,,,,,,,,,,,,,,,,,,,,,,,,,,,,,,,,,,
 New: 510.00,,,,,,,,,,,,,,,,,,,,,,,,,,,,,,,,,,,,,,,,,,,,,,,
 New: 700.00,,,,,,,,,,,,,,,,,,,,,,,,,,,,,,,,,,,,,,,,,,,,,,,
 New: 490.00,,,,,,,,,,,,,,,,,,,,,,,,,,,,,,,,,,,,,,,,,,,,,,,
 New: 500.00,,,,,,,,,,,,,,,,,,,,,,,,,,,,,,,,,,,,,,,,,,,,,,,
 New: 480.00,,,,,,,,,,,,,,,,,,,,,,,,,,,,,,,,,,,,,,,,,,,,,,,
 New: 490.00,,,,,,,,,,,,,,,,,,,,,,,,,,,,,,,,,,,,,,,,,,,,,,,
 New: 470.00,,,,,,,,,,,,,,,,,,,,,,,,,,,,,,,,,,,,,,,,,,,,,,,
 New: 480.00,,,,,,,,,,,,,,,,,,,,,,,,,,,,,,,,,,,,,,,,,,,,,,,
 New: 460.00,,,,,,,,,,,,,,,,,,,,,,,,,,,,,,,,,,,,,,,,,,,,,,,
 New: 470.00,,,,,,,,,,,,,,,,,,,,,,,,,,,,,,,,,,,,,,,,,,,,,,,
 New: 450.00,,,,,,,,,,,,,,,,,,,,,,,,,,,,,,,,,,,,,,,,,,,,,,,
 New: 460.00,,,,,,,,,,,,,,,,,,,,,,,,,,,,,,,,,,,,,,,,,,,,,,,
 New: 440.00,,,,,,,,,,,,,,,,,,,,,,,,,,,,,,,,,,,,,,,,,,,,,,,
 New: 450.00,,,,,,,,,,,,,,,,,,,,,,,,,,,,,,,,,,,,,,,,,,,,,,,
 New: 430.00,,,,,,,,,,,,,,,,,,,,,,,,,,,,,,,,,,,,,,,,,,,,,,,
 New: 440.00,,,,,,,,,,,,,,,,,,,,,,,,,,,,,,,,,,,,,,,,,,,,,,,
 New: 420.00,,,,,,,,,,,,,,,,,,,,,,,,,,,,,,,,,,,,,,,,,,,,,,,
 New: 430.00,,,,,,,,,,,,,,,,,,,,,,,,,,,,,,,,,,,,,,,,,,,,,,,
 New: 410.00,,,,,,,,,,,,,,,,,,,,,,,,,,,,,,,,,,,,,,,,,,,,,,,
 New: 420.00,,,,,,,,,,,,,,,,,,,,,,,,,,,,,,,,,,,,,,,,,,,,,,,
 New: 400.00,,,,,,,,,,,,,,,,,,,,,,,,,,,,,,,,,,,,,,,,,,,,,,,
 New: 410.00,,,,,,,,,,,,,,,,,,,,,,,,,,,,,,,,,,,,,,,,,,,,,,,
 New: 480.00,,,,,,,,,,,,,,,,,,,,,,,,,,,,,,,,,,,,,,,,,,,,,,,
 New: 490.00,,,,,,,,,,,,,,,,,,,,,,,,,,,,,,,,,,,,,,,,,,,,,,,
 New: 470.00,,,,,,,,,,,,,,,,,,,,,,,,,,,,,,,,,,,,,,,,,,,,,,,
 New: 480.00,,,,,,,,,,,,,,,,,,,,,,,,,,,,,,,,,,,,,,,,,,,,,,,
 New: 460.00,,,,,,,,,,,,,,,,,,,,,,,,,,,,,,,,,,,,,,,,,,,,,,,
 New: 470.00,,,,,,,,,,,,,,,,,,,,,,,,,,,,,,,,,,,,,,,,,,,,,,,
 New: 450.00,,,,,,,,,,,,,,,,,,,,,,,,,,,,,,,,,,,,,,,,,,,,,,,
 New: 460.00,,,,,,,,,,,,,,,,,,,,,,,,,,,,,,,,,,,,,,,,,,,,,,,
 New: 440.00,,,,,,,,,,,,,,,,,,,,,,,,,,,,,,,,,,,,,,,,,,,,,,,
 New: 450.00,,,,,,,,,,,,,,,,,,,,,,,,,,,,,,,,,,,,,,,,,,,,,,,
 New: 430.00,,,,,,,,,,,,,,,,,,,,,,,,,,,,,,,,,,,,,,,,,,,,,,,
 New: 440.00,,,,,,,,,,,,,,,,,,,,,,,,,,,,,,,,,,,,,,,,,,,,,,,
 New: 420.00,,,,,,,,,,,,,,,,,,,,,,,,,,,,,,,,,,,,,,,,,,,,,,,
 New: 430.00,,,,,,,,,,,,,,,,,,,,,,,,,,,,,,,,,,,,,,,,,,,,,,,
 New: 410.00,,,,,,,,,,,,,,,,,,,,,,,,,,,,,,,,,,,,,,,,,,,,,,,
 New: 420.00,,,,,,,,,,,,,,,,,,,,,,,,,,,,,,,,,,,,,,,,,,,,,,,
 New: 400.00,,,,,,,,,,,,,,,,,,,,,,,,,,,,,,,,,,,,,,,,,,,,,,,
 New: 410.00,,,,,,,,,,,,,,,,,,,,,,,,,,,,,,,,,,,,,,,,,,,,,,,
 New: 480.00,,,,,,,,,,,,,,,,,,,,,,,,,,,,,,,,,,,,,,,,,,,,,,,
 New: 490.00,,,,,,,,,,,,,,,,,,,,,,,,,,,,,,,,,,,,,,,,,,,,,,,
 New: 470.00,,,,,,,,,,,,,,,,,,,,,,,,,,,,,,,,,,,,,,,,,,,,,,,
 New: 480.00,,,,,,,,,,,,,,,,,,,,,,,,,,,,,,,,,,,,,,,,,,,,,,,
 New: 460.00,,,,,,,,,,,,,,,,,,,,,,,,,,,,,,,,,,,,,,,,,,,,,,,
 New: 470.00,,,,,,,,,,,,,,,,,,,,,,,,,,,,,,,,,,,,,,,,,,,,,,,
 New: 450.00,,,,,,,,,,,,,,,,,,,,,,,,,,,,,,,,,,,,,,,,,,,,,,,
 New: 460.00,,,,,,,,,,,,,,,,,,,,,,,,,,,,,,,,,,,,,,,,,,,,,,,
 New: 440.00,,,,,,,,,,,,,,,,,,,,,,,,,,,,,,,,,,,,,,,,,,,,,,,
 New: 450.00,,,,,,,,,,,,,,,,,,,,,,,,,,,,,,,,,,,,,,,,,,,,,,,
 New: 430.00,,,,,,,,,,,,,,,,,,,,,,,,,,,,,,,,,,,,,,,,,,,,,,,
 New: 440.00,,,,,,,,,,,,,,,,,,,,,,,,,,,,,,,,,,,,,,,,,,,,,,,
 New: 420.00,,,,,,,,,,,,,,,,,,,,,,,,,,,,,,,,,,,,,,,,,,,,,,,
 New: 430.00,,,,,,,,,,,,,,,,,,,,,,,,,,,,,,,,,,,,,,,,,,,,,,,
 New: 410.00,,,,,,,,,,,,,,,,,,,,,,,,,,,,,,,,,,,,,,,,,,,,,,,
 New: 420.00,,,,,,,,,,,,,,,,,,,,,,,,,,,,,,,,,,,,,,,,,,,,,,,
,,,,,,,,,,,,,,,,,,,,,,,,,,,,,,,,,,,,,,,,,,,,,,,
,,,,,,,,,,,,,,,,,,,,,,,,,,,,,,,,,,,,,,,,,,,,,,,
,,,,,,,,,,,,,,,,,,,,,,,,,,,,,,,,,,,,,,,,,,,,,,,
,,,,,,,,,,,,,,,,,,,,,,,,,,,,,,,,,,,,,,,,,,,,,,,
,,,,,,,,,,,,,,,,,,,,,,,,,,,,,,,,,,,,,,,,,,,,,,,
,,,,,,,,,,,,,,,,,,,,,,,,,,,,,,,,,,,,,,,,,,,,,,,
,,,,,,,,,,,,,,,,,,,,,,,,,,,,,,,,,,,,,,,,,,,,,,,
,,,,,,,,,,,,,,,,,,,,,,,,,,,,,,,,,,,,,,,,,,,,,,,
,,,,,,,,,,,,,,,,,,,,,,,,,,,,,,,,,,,,,,,,,,,,,,,
,,,,,,,,,,,,,,,,,,,,,,,,,,,,,,,,,,,,,,,,,,,,,,,
,,,,,,,,,,,,,,,,,,,,,,,,,,,,,,,,,,,,,,,,,,,,,,,
,,,,,,,,,,,,,,,,,,,,,,,,,,,,,,,,,,,,,,,,,,,,,,,
,,,,,,,,,,,,,,,,,,,,,,,,,,,,,,,,,,,,,,,,,,,,,,,
,,,,,,,,,,,,,,,,,,,,,,,,,,,,,,,,,,,,,,,,,,,,,,,
,,,,,,,,,,,,,,,,,,,,,,,,,,,,,,,,,,,,,,,,,,,,,,,
,,,,,,,,,,,,,,,,,,,,,,,,,,,,,,,,,,,,,,,,,,,,,,,
,,,,,,,,,,,,,,,,,,,,,,,,,,,,,,,,,,,,,,,,,,,,,,,
,,,,,,,,,,,,,,,,,,,,,,,,,,,,,,,,,,,,,,,,,,,,,,,
,,,,,,,,,,,,,,,,,,,,,,,,,,,,,,,,,,,,,,,,,,,,,,,
,,,,,,,,,,,,,,,,,,,,,,,,,,,,,,,,,,,,,,,,,,,,,,,
,,,,,,,,,,,,,,,,,,,,,,,,,,,,,,,,,,,,,,,,,,,,,,,
,,,,,,,,,,,,,,,,,,,,,,,,,,,,,,,,,,,,,,,,,,,,,,,
,,,,,,,,,,,,,,,,,,,,,,,,,,,,,,,,,,,,,,,,,,,,,,,
,,,,,,,,,,,,,,,,,,,,,,,,,,,,,,,,,,,,,,,,,,,,,,,
,,,,,,,,,,,,,,,,,,,,,,,,,,,,,,,,,,,,,,,,,,,,,,,
,,,,,,,,,,,,,,,,,,,,,,,,,,,,,,,,,,,,,,,,,,,,,,,
,,,,,,,,,,,,,,,,,,,,,,,,,,,,,,,,,,,,,,,,,,,,,,,
,,,,,,,,,,,,,,,,,,,,,,,,,,,,,,,,,,,,,,,,,,,,,,,
,,,,,,,,,,,,,,,,,,,,,,,,,,,,,,,,,,,,,,,,,,,,,,,
 New:ON,,,,,,,,,,,,,,,,,,,,,,,,,,,,,,,,,,,,,,,,,,,,,,,
 New: 500.00,,,,,,,,,,,,,,,,,,,,,,,,,,,,,,,,,,,,,,,,,,,,,,,
 New:   0.15,,,,,,,,,,,,,,,,,,,,,,,,,,,,,,,,,,,,,,,,,,,,,,,
 New:Slow,,,,,,,,,,,,,,,,,,,,,,,,,,,,,,,,,,,,,,,,,,,,,,,
 New:0.50000,,,,,,,,,,,,,,,,,,,,,,,,,,,,,,,,,,,,,,,,,,,,,,,
 New: 500.00,,,,,,,,,,,,,,,,,,,,,,,,,,,,,,,,,,,,,,,,,,,,,,,
 New: 510.00,,,,,,,,,,,,,,,,,,,,,,,,,,,,,,,,,,,,,,,,,,,,,,,
 New: 700.00,,,,,,,,,,,,,,,,,,,,,,,,,,,,,,,,,,,,,,,,,,,,,,,
 New: 490.00,,,,,,,,,,,,,,,,,,,,,,,,,,,,,,,,,,,,,,,,,,,,,,,
 New: 500.00,,,,,,,,,,,,,,,,,,,,,,,,,,,,,,,,,,,,,,,,,,,,,,,
 New: 480.00,,,,,,,,,,,,,,,,,,,,,,,,,,,,,,,,,,,,,,,,,,,,,,,
 New: 490.00,,,,,,,,,,,,,,,,,,,,,,,,,,,,,,,,,,,,,,,,,,,,,,,
 New: 470.00,,,,,,,,,,,,,,,,,,,,,,,,,,,,,,,,,,,,,,,,,,,,,,,
 New: 480.00,,,,,,,,,,,,,,,,,,,,,,,,,,,,,,,,,,,,,,,,,,,,,,,
 New: 460.00,,,,,,,,,,,,,,,,,,,,,,,,,,,,,,,,,,,,,,,,,,,,,,,
 New: 470.00,,,,,,,,,,,,,,,,,,,,,,,,,,,,,,,,,,,,,,,,,,,,,,,
 New: 450.00,,,,,,,,,,,,,,,,,,,,,,,,,,,,,,,,,,,,,,,,,,,,,,,
 New: 460.00,,,,,,,,,,,,,,,,,,,,,,,,,,,,,,,,,,,,,,,,,,,,,,,
 New: 440.00,,,,,,,,,,,,,,,,,,,,,,,,,,,,,,,,,,,,,,,,,,,,,,,
 New: 450.00,,,,,,,,,,,,,,,,,,,,,,,,,,,,,,,,,,,,,,,,,,,,,,,
 New: 430.00,,,,,,,,,,,,,,,,,,,,,,,,,,,,,,,,,,,,,,,,,,,,,,,
 New: 440.00,,,,,,,,,,,,,,,,,,,,,,,,,,,,,,,,,,,,,,,,,,,,,,,
 New: 420.00,,,,,,,,,,,,,,,,,,,,,,,,,,,,,,,,,,,,,,,,,,,,,,,
 New: 430.00,,,,,,,,,,,,,,,,,,,,,,,,,,,,,,,,,,,,,,,,,,,,,,,
 New: 410.00,,,,,,,,,,,,,,,,,,,,,,,,,,,,,,,,,,,,,,,,,,,,,,,
 New: 420.00,,,,,,,,,,,,,,,,,,,,,,,,,,,,,,,,,,,,,,,,,,,,,,,
 New: 400.00,,,,,,,,,,,,,,,,,,,,,,,,,,,,,,,,,,,,,,,,,,,,,,,
 New: 410.00,,,,,,,,,,,,,,,,,,,,,,,,,,,,,,,,,,,,,,,,,,,,,,,
 New: 480.00,,,,,,,,,,,,,,,,,,,,,,,,,,,,,,,,,,,,,,,,,,,,,,,
 New: 490.00,,,,,,,,,,,,,,,,,,,,,,,,,,,,,,,,,,,,,,,,,,,,,,,
 New: 470.00,,,,,,,,,,,,,,,,,,,,,,,,,,,,,,,,,,,,,,,,,,,,,,,
 New: 480.00,,,,,,,,,,,,,,,,,,,,,,,,,,,,,,,,,,,,,,,,,,,,,,,
 New: 460.00,,,,,,,,,,,,,,,,,,,,,,,,,,,,,,,,,,,,,,,,,,,,,,,
 New: 470.00,,,,,,,,,,,,,,,,,,,,,,,,,,,,,,,,,,,,,,,,,,,,,,,
 New: 450.00,,,,,,,,,,,,,,,,,,,,,,,,,,,,,,,,,,,,,,,,,,,,,,,
 New: 460.00,,,,,,,,,,,,,,,,,,,,,,,,,,,,,,,,,,,,,,,,,,,,,,,
 New: 440.00,,,,,,,,,,,,,,,,,,,,,,,,,,,,,,,,,,,,,,,,,,,,,,,
 New: 450.00,,,,,,,,,,,,,,,,,,,,,,,,,,,,,,,,,,,,,,,,,,,,,,,
 New: 430.00,,,,,,,,,,,,,,,,,,,,,,,,,,,,,,,,,,,,,,,,,,,,,,,
 New: 440.00,,,,,,,,,,,,,,,,,,,,,,,,,,,,,,,,,,,,,,,,,,,,,,,
 New: 420.00,,,,,,,,,,,,,,,,,,,,,,,,,,,,,,,,,,,,,,,,,,,,,,,
 New: 430.00,,,,,,,,,,,,,,,,,,,,,,,,,,,,,,,,,,,,,,,,,,,,,,,
 New: 410.00,,,,,,,,,,,,,,,,,,,,,,,,,,,,,,,,,,,,,,,,,,,,,,,
 New: 420.00,,,,,,,,,,,,,,,,,,,,,,,,,,,,,,,,,,,,,,,,,,,,,,,
 New: 400.00,,,,,,,,,,,,,,,,,,,,,,,,,,,,,,,,,,,,,,,,,,,,,,,
 New: 410.00,,,,,,,,,,,,,,,,,,,,,,,,,,,,,,,,,,,,,,,,,,,,,,,
 New: 480.00,,,,,,,,,,,,,,,,,,,,,,,,,,,,,,,,,,,,,,,,,,,,,,,
 New: 490.00,,,,,,,,,,,,,,,,,,,,,,,,,,,,,,,,,,,,,,,,,,,,,,,
 New: 470.00,,,,,,,,,,,,,,,,,,,,,,,,,,,,,,,,,,,,,,,,,,,,,,,
 New: 480.00,,,,,,,,,,,,,,,,,,,,,,,,,,,,,,,,,,,,,,,,,,,,,,,
 New: 460.00,,,,,,,,,,,,,,,,,,,,,,,,,,,,,,,,,,,,,,,,,,,,,,,
 New: 470.00,,,,,,,,,,,,,,,,,,,,,,,,,,,,,,,,,,,,,,,,,,,,,,,
 New: 450.00,,,,,,,,,,,,,,,,,,,,,,,,,,,,,,,,,,,,,,,,,,,,,,,
 New: 460.00,,,,,,,,,,,,,,,,,,,,,,,,,,,,,,,,,,,,,,,,,,,,,,,
 New: 440.00,,,,,,,,,,,,,,,,,,,,,,,,,,,,,,,,,,,,,,,,,,,,,,,
 New: 450.00,,,,,,,,,,,,,,,,,,,,,,,,,,,,,,,,,,,,,,,,,,,,,,,
 New: 430.00,,,,,,,,,,,,,,,,,,,,,,,,,,,,,,,,,,,,,,,,,,,,,,,
 New: 440.00,,,,,,,,,,,,,,,,,,,,,,,,,,,,,,,,,,,,,,,,,,,,,,,
 New: 420.00,,,,,,,,,,,,,,,,,,,,,,,,,,,,,,,,,,,,,,,,,,,,,,,
 New: 430.00,,,,,,,,,,,,,,,,,,,,,,,,,,,,,,,,,,,,,,,,,,,,,,,
 New: 410.00,,,,,,,,,,,,,,,,,,,,,,,,,,,,,,,,,,,,,,,,,,,,,,,
 New: 420.00,,,,,,,,,,,,,,,,,,,,,,,,,,,,,,,,,,,,,,,,,,,,,,,
 New: 400.00,,,,,,,,,,,,,,,,,,,,,,,,,,,,,,,,,,,,,,,,,,,,,,,
 New: 410.00,,,,,,,,,,,,,,,,,,,,,,,,,,,,,,,,,,,,,,,,,,,,,,,